File: SnIn/agsn/output_xrd/ructureHKL.csv
H,K,L,Distance,2theta/TOF,Mult
3,-11,-4,4.438,20.0071,8
5,11,2,4.437,20.0116,8
-9,9,-3,4.4342,20.0244,8
4,-10,-6,4.4302,20.0427,8
-6,-7,9,4.4288,20.0491,8
9,2,-10,4.4284,20.0509,8
-2,4,12,4.4283,20.0513,8
-11,3,-8,4.4275,20.055,8
8,-10,0,4.4272,20.0564,4
3,-9,-8,4.4253,20.0651,8
12,-7,0,4.4222,20.0793,4
2,-6,-11,4.4213,20.0834,8
7,5,10,4.4211,20.0843,8
-6,-8,-8,4.4202,20.0885,4
11,-8,0,4.4183,20.0972,4
0,-10,-7,4.4179,20.099,4
-4,-3,12,4.4174,20.1013,8
10,8,4,4.4163,20.1064,8
10,6,-7,4.4154,20.1105,8
-8,-10,-1,4.414,20.117,8
-6,4,11,4.413,20.1216,8
12,6,-4,4.4128,20.1225,8
10,3,-9,4.4122,20.1253,8
-8,-4,10,4.4113,20.1294,8
12,7,1,4.4089,20.1405,8
0,11,5,4.4086,20.1419,4
1,-10,-7,4.4079,20.1451,8
9,-6,8,4.4067,20.1506,8
-5,-2,12,4.4053,20.1571,8
11,-8,-1,4.4051,20.158,8
-9,-7,7,4.4029,20.1682,8
1,11,-5,4.3987,20.1877,8
7,-9,6,4.3964,20.1984,8
4,8,9,4.3951,20.2044,8
-7,-3,-11,4.3924,20.2169,8
8,-9,-5,4.3923,20.2174,8
-10,5,-8,4.3884,20.2356,8
-10,-7,6,4.3854,20.2495,8
5,5,11,4.3832,20.2598,1
-8,0,11,4.3828,20.2617,4
0,12,0,4.3818,20.2664,2
-6,-11,0,4.3803,20.2734,4
-6,-6,-10,4.3801,20.2743,1
-3,4,12,4.3788,20.2804,8
2,10,7,4.3784,20.2823,8
-11,6,6,4.3782,20.2832,4
4,-7,10,4.3775,20.2865,8
-11,5,-7,4.3774,20.2869,8
6,-10,-5,4.3765,20.2912,8
8,-10,2,4.3748,20.2991,8
-8,-7,8,4.3746,20.3001,8
-1,12,0,4.3721,20.3118,4
-3,6,-11,4.372,20.3123,8
-5,11,3,4.3713,20.3156,8
12,-7,2,4.3699,20.3221,8
2,11,5,4.3694,20.3245,8
0,12,1,4.3689,20.3268,4
-4,-11,-4,4.3687,20.3278,4
8,-1,11,4.3677,20.3325,8
6,11,1,4.3675,20.3334,8
11,-8,2,4.3662,20.3395,8
7,-10,4,4.3661,20.34,8
10,9,0,4.3643,20.3485,4
1,12,1,4.3593,20.3721,4
-6,0,12,4.3588,20.3744,4
4,-9,-8,4.3565,20.3853,8
-6,-9,-7,4.3553,20.391,8
9,-5,9,4.3542,20.3962,4
8,-6,-9,4.3528,20.4028,8
-9,-3,10,4.3519,20.4071,8
10,9,-1,4.3516,20.4085,8
-11,0,-9,4.3444,20.4427,4
6,1,12,4.3439,20.4451,8
2,12,0,4.3433,20.4479,4
-9,-9,4,4.3432,20.4484,1
5,10,-6,4.3421,20.4536,8
8,-8,-7,4.341,20.4589,8
12,0,-8,4.3399,20.4641,4
0,12,-2,4.331,20.5066,4
2,12,1,4.3307,20.5081,8
0,5,12,4.3306,20.5085,4
-3,10,7,4.3305,20.509,8
5,3,12,4.33,20.5114,8
11,1,9,4.3296,20.5133,8
6,-11,-2,4.3295,20.5138,8
12,-1,8,4.3252,20.5344,8
11,7,5,4.3239,20.5407,8
8,2,-11,4.3232,20.544,8
12,-5,6,4.3223,20.5484,8
-3,11,-5,4.3218,20.5508,8
-1,12,-2,4.3216,20.5517,8
-1,-5,12,4.3212,20.5536,8
-10,9,2,4.3141,20.5878,8
4,-4,12,4.3121,20.5975,8
-8,-10,3,4.3118,20.5989,8
5,8,-9,4.309,20.6125,8
0,-8,-10,4.3074,20.6202,4
12,-7,-3,4.3071,20.6217,8
4,6,11,4.3057,20.6284,8
10,0,10,4.3051,20.6313,4
-11,8,-3,4.3036,20.6386,8
-7,7,-9,4.3033,20.6401,8
-10,-8,5,4.3017,20.6478,8
6,-2,12,4.3001,20.6556,8
12,-6,5,4.2985,20.6634,8
-1,8,10,4.2981,20.6653,8
3,12,0,4.2965,20.6731,4
7,-8,8,4.2954,20.6784,8
0,-9,-9,4.2952,20.6794,4
2,12,-2,4.2937,20.6867,8
2,-5,12,4.2934,20.6882,8
12,4,7,4.2927,20.6916,8
-5,7,10,4.2925,20.6926,8
-10,-1,-10,4.2908,20.7009,4
7,-4,-11,4.2889,20.7101,8
-11,2,-9,4.2862,20.7233,8
-1,-9,9,4.286,20.7243,8
-3,12,1,4.2844,20.7321,8
5,-11,-4,4.2841,20.7336,8
12,2,8,4.2819,20.7444,8
6,-5,-11,4.2795,20.7561,8
-8,5,-10,4.2779,20.764,8
5,9,8,4.2727,20.7895,8
2,8,-10,4.2708,20.7989,8
0,-11,6,4.2705,20.8004,4
0,12,-3,4.2698,20.8038,4
6,11,-3,4.2685,20.8102,8
0,-7,11,4.2667,20.8191,4
-4,-10,7,4.266,20.8225,8
-9,-10,0,4.2654,20.8255,4
1,11,-6,4.2615,20.8448,8
1,12,3,4.2608,20.8482,8
2,9,-9,4.2589,20.8576,8
-7,11,0,4.2588,20.8581,4
-7,-6,-10,4.2586,20.8591,8
-4,11,-5,4.2577,20.8636,8
-8,9,-6,4.2556,20.874,8
7,-10,-5,4.2553,20.8755,8
10,-9,3,4.2536,20.8839,8
-9,10,1,4.2535,20.8844,8
8,-3,-11,4.2519,20.8924,8
9,-4,-10,4.2512,20.8958,8
10,2,10,4.2486,20.9088,4
-3,12,-2,4.2485,20.9093,8
-3,5,12,4.2482,20.9108,8
7,11,-1,4.247,20.9167,8
-6,10,-6,4.2412,20.9457,4
-7,0,12,4.239,20.9567,4
7,-9,-7,4.2358,20.9727,8
-2,11,6,4.2348,20.9777,8
-2,12,3,4.2342,20.9807,8
-9,9,5,4.2341,20.9812,8
4,12,0,4.2335,20.9842,4
0,-10,-8,4.2315,20.9942,4
2,7,11,4.2311,20.9962,8
5,4,12,4.2308,20.9977,8
6,3,12,4.23,21.0018,8
10,-6,-8,4.2294,21.0048,8
8,-10,-4,4.2281,21.0113,8
-3,8,10,4.2263,21.0204,8
10,-7,-7,4.226,21.0219,4
-9,0,-11,4.2257,21.0234,4
7,-1,12,4.2253,21.0254,8
-5,-6,11,4.2247,21.0284,8
12,-7,-4,4.2236,21.0339,8
-1,10,-8,4.2227,21.0385,8
4,12,-1,4.2219,21.0425,8
-11,8,4,4.2203,21.0506,8
-11,6,7,4.2195,21.0546,8
9,-10,2,4.2185,21.0597,8
-9,7,8,4.2183,21.0607,8
11,3,9,4.2168,21.0682,8
3,-9,-9,4.2148,21.0784,4
12,3,-8,4.2127,21.089,8
7,-11,2,4.2121,21.092,8
-6,-8,9,4.2104,21.1006,8
12,8,0,4.2047,21.1296,4
-9,-6,-9,4.1987,21.1601,4
-2,-10,8,4.1968,21.1698,8
11,-5,8,4.1959,21.1744,8
-6,7,-10,4.1949,21.1795,8
-11,-7,-6,4.1933,21.1877,8
-3,11,6,4.1914,21.1974,8
3,12,3,4.1908,21.2005,4
0,12,-4,4.1884,21.2128,4
9,-8,7,4.1881,21.2143,8
-3,7,-11,4.1879,21.2153,8
-4,12,2,4.1876,21.2169,8
4,-5,12,4.1873,21.2184,8
6,-11,4,4.1872,21.2189,8
7,-2,12,4.185,21.2302,8
10,5,9,4.1829,21.241,8
10,-3,10,4.1809,21.2512,4
-1,12,4,4.1799,21.2564,8
-5,11,5,4.1793,21.2595,8
0,-6,12,4.1775,21.2687,4
6,-9,8,4.1765,21.2739,8
11,9,0,4.1749,21.2821,4
10,-9,-4,4.1732,21.2909,8
-10,-8,6,4.1731,21.2914,8
9,2,11,4.1721,21.2966,8
8,7,-9,4.171,21.3023,8
12,-6,6,4.1701,21.3069,8
12,-5,-7,4.1694,21.3105,8
-1,6,12,4.1691,21.3121,8
-4,8,10,4.1663,21.3266,8
7,-5,-11,4.166,21.3281,8
8,8,8,4.1638,21.3395,1
-11,-9,1,4.1637,21.3401,8
-9,-10,-3,4.1619,21.3494,8
12,-8,2,4.1597,21.3608,8
8,4,11,4.1578,21.3707,8
-5,12,0,4.1564,21.378,4
7,11,3,4.1558,21.3811,8
-4,-9,-9,4.1553,21.3837,4
-2,12,4,4.1547,21.3868,8
-3,10,-8,4.1545,21.3879,8
5,12,-1,4.1454,21.4354,8
-2,-6,12,4.1441,21.4422,8
12,0,-9,4.1408,21.4595,4
-6,4,12,4.1373,21.4778,8
-4,-11,6,4.1328,21.5015,8
-4,12,3,4.1323,21.5041,8
6,-6,-11,4.1316,21.5078,8
9,5,10,4.1314,21.5089,8
11,-9,-2,4.1308,21.512,8
-7,-10,-6,4.1307,21.5126,8
-8,11,0,4.1304,21.5142,4
-8,-6,-10,4.1302,21.5152,8
-4,-7,-11,4.1295,21.5189,8
12,-1,-9,4.128,21.5268,8
-8,-10,-5,4.1272,21.531,8
11,4,9,4.1249,21.5432,8
12,-7,-5,4.1231,21.5527,8
11,0,-10,4.123,21.5532,4
0,11,-7,4.1228,21.5543,4
12,4,8,4.1211,21.5633,8
-7,-3,12,4.1202,21.568,8
-11,8,-5,4.12,21.5691,8
8,-11,-1,4.1196,21.5712,8
1,11,7,4.1147,21.5972,8
-3,12,4,4.1138,21.602,8
5,12,-2,4.113,21.6063,8
5,5,12,4.1126,21.6084,1
8,0,12,4.1124,21.6094,4
-9,-9,-6,4.1113,21.6153,1
11,1,10,4.1104,21.6201,8
8,9,7,4.1095,21.6249,8
-9,-3,-11,4.108,21.6329,8
12,8,3,4.1055,21.6462,8
-10,-10,0,4.104,21.6542,1
3,-6,12,4.1034,21.6574,8
7,-8,9,4.1022,21.6638,8
-8,-1,12,4.0999,21.6761,8
4,10,8,4.0975,21.689,8
-6,-10,-7,4.0965,21.6943,8
10,-10,-1,4.0934,21.711,8
5,-8,-10,4.0928,21.7142,8
10,4,-10,4.0913,21.7222,8
2,11,-7,4.0907,21.7255,8
12,2,-9,4.0904,21.7271,8
0,12,-5,4.0903,21.7276,4
6,-11,5,4.0891,21.7341,8
-8,-11,-2,4.0878,21.7411,8
-9,10,-4,4.0864,21.7486,8
-1,12,-5,4.0824,21.7702,8
5,9,-9,4.0823,21.7707,8
0,9,-10,4.0809,21.7783,4
-7,-11,-4,4.0806,21.7799,8
-11,-9,-3,4.0777,21.7956,8
10,-9,-5,4.0761,21.8042,8
11,-2,-10,4.0732,21.82,8
-1,-9,-10,4.073,21.821,8
7,9,8,4.0707,21.8335,8
0,8,-11,4.0704,21.8351,4
10,0,-11,4.0685,21.8455,4
6,12,0,4.0677,21.8498,4
8,2,12,4.063,21.8754,8
1,-8,-11,4.0626,21.8776,8
-10,-10,-2,4.0621,21.8803,1
10,7,8,4.062,21.8809,8
5,11,-6,4.061,21.8863,8
5,12,3,4.0605,21.889,8
2,12,-5,4.0589,21.8978,8
-4,12,4,4.0584,21.9005,8
5,-7,11,4.0578,21.9038,8
-6,12,-1,4.0574,21.906,8
10,1,11,4.0564,21.9114,8
11,-6,-8,4.0563,21.912,8
-11,-7,7,4.0533,21.9284,8
3,11,7,4.0515,21.9383,8
2,-9,-10,4.0497,21.9481,8
-4,6,12,4.0484,21.9553,8
0,-10,-9,4.0464,21.9663,4
8,-5,-11,4.0456,21.9707,8
10,-6,-9,4.0445,21.9767,8
2,8,11,4.0395,22.0042,8
1,10,9,4.0387,22.0087,8
-8,-11,3,4.0363,22.0219,8
10,-8,7,4.035,22.0291,8
9,-7,-9,4.0348,22.0302,8
-7,4,12,4.0345,22.0319,8
12,-8,4,4.033,22.0402,8
12,-6,7,4.0323,22.044,8
12,-3,9,4.0299,22.0573,8
-7,6,-11,4.0292,22.0612,8
-9,8,-8,4.0283,22.0662,8
-5,-10,8,4.0275,22.0706,8
6,12,2,4.0269,22.074,8
6,5,12,4.0266,22.0756,8
9,-4,11,4.0229,22.0962,8
3,12,-5,4.0207,22.1084,8
2,-10,-9,4.016,22.1346,8
-11,5,-9,4.0152,22.1391,8
11,3,10,4.0134,22.1492,8
8,10,-6,4.0132,22.1503,8
-3,9,10,4.0117,22.1587,8
-10,10,-3,4.0116,22.1592,8
12,-7,6,4.0094,22.1715,8
-1,-7,12,4.0085,22.1766,8
6,8,-10,4.008,22.1794,8
-11,9,-4,4.0066,22.1872,8
-8,3,12,4.0037,22.2035,8
-3,-8,-11,4.0018,22.2142,8
4,-11,-7,3.9986,22.2322,8
6,9,-9,3.9982,22.2344,8
9,-11,0,3.9981,22.235,4
-9,-6,-10,3.9979,22.2361,8
7,10,7,3.9966,22.2434,4
9,10,5,3.9952,22.2513,8
12,-9,0,3.9933,22.2621,4
-5,12,4,3.9903,22.279,8
-7,11,5,3.9897,22.2824,8
9,-11,-1,3.9883,22.2903,8
-8,8,9,3.9871,22.2971,8
2,-7,12,3.9863,22.3017,8
10,5,-10,3.9842,22.3136,8
12,9,-1,3.9835,22.3175,8
-9,0,12,3.9817,22.3277,4
5,6,12,3.9809,22.3323,8
0,12,6,3.9793,22.3414,4
-9,9,-7,3.9791,22.3425,8
-3,-10,-9,3.9789,22.3437,8
-6,-11,-6,3.9782,22.3476,4
-6,12,3,3.9777,22.3505,8
6,-7,11,3.9752,22.3647,8
8,7,10,3.9739,22.3721,8
-1,12,6,3.972,22.383,8
-9,-1,12,3.9703,22.3927,8
0,-11,-8,3.9701,22.3938,4
7,12,0,3.9698,22.3955,4
4,12,-5,3.9689,22.4007,8
8,11,4,3.9673,22.4098,8
-10,-9,6,3.9662,22.4161,8
10,3,-11,3.9632,22.4333,8
1,11,8,3.9629,22.435,8
7,12,1,3.9603,22.45,8
9,-11,2,3.9594,22.4551,8
-8,9,-8,3.9582,22.462,4
12,9,2,3.9547,22.4822,8
-4,-8,-11,3.9507,22.5052,8
-2,12,-6,3.9503,22.5075,8
-3,-7,12,3.95,22.5093,8
12,4,-9,3.9495,22.5122,8
12,0,-10,3.9478,22.522,4
-6,10,-8,3.9466,22.5289,8
11,10,0,3.9453,22.5364,4
12,-8,5,3.9452,22.537,8
10,-10,-4,3.9438,22.5451,8
2,-11,-8,3.9414,22.559,8
-9,2,12,3.9368,22.5857,8
12,1,10,3.9367,22.5863,8
11,10,1,3.9359,22.591,8
-11,4,-10,3.934,22.602,8
-5,-11,7,3.9334,22.6055,8
-7,12,2,3.9319,22.6142,8
7,5,12,3.9316,22.616,8
-4,10,9,3.9287,22.6329,8
8,-4,12,3.9248,22.6557,8
-9,5,-11,3.921,22.6779,8
-11,-9,-5,3.9205,22.6809,8
8,-6,11,3.9199,22.6844,8
-3,12,-6,3.9151,22.7126,8
7,8,10,3.9143,22.7173,8
11,0,11,3.9138,22.7202,4
9,11,3,3.9125,22.7279,8
-6,12,-4,3.9116,22.7332,8
11,-10,2,3.908,22.7544,8
11,-7,8,3.9079,22.755,8
3,11,8,3.9064,22.7638,8
5,12,-5,3.9052,22.7709,8
7,-9,-9,3.9051,22.7715,4
12,2,-10,3.904,22.778,8
11,-1,11,3.903,22.7839,4
6,-6,12,3.9027,22.7857,8
4,-7,12,3.9009,22.7964,8
-10,7,9,3.8974,22.8171,8
-5,-9,-10,3.897,22.8195,8
-11,-6,9,3.8923,22.8474,8
9,-10,6,3.8915,22.8522,8
8,-10,-7,3.8899,22.8617,8
12,6,8,3.8891,22.8665,8
5,-8,-11,3.8879,22.8736,8
10,-4,11,3.8866,22.8814,8
-7,-11,6,3.8865,22.882,8
7,12,3,3.886,22.8849,8
11,-8,7,3.8839,22.8975,8
-7,-7,-11,3.8837,22.8987,1
8,11,-5,3.8836,22.8993,8
9,-3,12,3.8828,22.9041,8
0,-9,-11,3.8777,22.9346,4
-11,2,-11,3.8711,22.9742,4
1,-9,-11,3.871,22.9748,8
9,-8,9,3.8676,22.9953,4
4,12,-6,3.8672,22.9977,8
-5,-10,9,3.8669,22.9995,8
0,-10,-10,3.8657,23.0068,4
8,12,0,3.8652,23.0098,4
-10,-11,0,3.8642,23.0158,4
10,-6,-10,3.8641,23.0164,8
11,-10,-3,3.8629,23.0237,8
10,-10,-5,3.8616,23.0315,8
0,12,-7,3.859,23.0472,4
-4,-11,-8,3.8588,23.0485,8
6,-11,7,3.858,23.0533,8
7,-10,8,3.857,23.0594,8
8,12,-1,3.8564,23.063,8
9,7,-10,3.8556,23.0679,8
-10,-11,-1,3.8554,23.0691,8
12,-5,9,3.8529,23.0842,8
1,12,-7,3.8524,23.0873,8
12,-3,10,3.8513,23.094,8
0,-8,12,3.8511,23.0952,4
2,9,-11,3.8509,23.0964,8
-9,-11,4,3.8496,23.1043,8
-10,0,12,3.8494,23.1055,4
-10,9,-7,3.847,23.1201,8
12,9,-4,3.8453,23.1305,8
12,8,-6,3.8452,23.1311,8
1,8,12,3.8444,23.136,8
-9,9,-8,3.8413,23.1549,8
-5,-7,12,3.8404,23.1604,8
10,1,12,3.8392,23.1678,8
-2,-10,-10,3.8391,23.1684,4
-11,5,-10,3.8385,23.172,8
-2,12,-7,3.8326,23.2082,8
6,12,5,3.8313,23.2162,8
8,12,2,3.8302,23.2229,8
-8,5,12,3.83,23.2242,8
-10,11,2,3.8292,23.2291,8
-2,8,12,3.8248,23.2562,8
7,12,4,3.8243,23.2593,8
-6,9,10,3.8236,23.2636,8
-11,9,-6,3.8224,23.271,8
11,3,11,3.8197,23.2877,4
3,-9,-11,3.8182,23.297,8
0,-11,9,3.816,23.3106,4
6,-8,11,3.815,23.3168,8
8,-8,-10,3.8139,23.3236,8
-9,-4,12,3.8107,23.3435,8
1,11,-9,3.8096,23.3503,8
-10,-2,12,3.8088,23.3553,8
-5,12,6,3.8082,23.359,8
-3,-10,-10,3.8067,23.3683,4
-9,-6,11,3.8063,23.3708,8
8,9,-9,3.8054,23.3764,8
11,10,-4,3.8024,23.3951,8
3,12,7,3.8004,23.4076,8
5,11,8,3.8002,23.4089,8
-6,10,-9,3.7951,23.4408,8
10,-5,11,3.7945,23.4445,8
-3,-8,12,3.7928,23.4552,8
12,-10,0,3.791,23.4665,4
2,-11,9,3.7905,23.4696,8
8,-11,6,3.7882,23.4841,8
8,12,-3,3.7877,23.4872,8
-10,11,-3,3.7868,23.4929,8
8,-7,11,3.7856,23.5004,8
12,10,1,3.7826,23.5193,8
12,-4,10,3.781,23.5294,8
9,10,-7,3.7788,23.5433,8
-7,-11,-7,3.7742,23.5724,4
-4,-9,11,3.7738,23.575,8
-9,-11,5,3.773,23.58,8
-6,7,12,3.7701,23.5984,8
12,-9,5,3.7689,23.6061,8
-10,10,6,3.7677,23.6137,8
12,0,11,3.763,23.6436,4
4,10,-10,3.7627,23.6455,8
8,10,-8,3.7609,23.657,8
11,-7,-9,3.7607,23.6583,8
-10,-3,12,3.7598,23.664,8
-3,11,9,3.7593,23.6672,8
12,10,2,3.7579,23.6761,8
12,-7,-8,3.7578,23.6768,8
4,12,7,3.7566,23.6845,8
-9,12,0,3.7561,23.6877,4
11,-8,-8,3.7554,23.6921,4
12,-1,-11,3.7534,23.7049,8
-11,-4,11,3.751,23.7203,8
7,12,5,3.7492,23.7319,8
-9,12,1,3.748,23.7396,8
10,-8,9,3.7461,23.7518,8
12,-6,-9,3.7439,23.766,8
-7,9,10,3.742,23.7782,8
-6,12,-6,3.7396,23.7937,4
12,-8,-7,3.7364,23.8144,8
10,7,10,3.7352,23.8221,4
-7,-8,11,3.7339,23.8306,8
0,12,-8,3.7329,23.837,4
6,11,8,3.732,23.8429,8
-11,11,0,3.7309,23.85,4
11,6,10,3.7307,23.8513,8
-8,12,-4,3.7306,23.8519,8
10,11,-4,3.7297,23.8578,8
-11,-10,-5,3.7285,23.8656,8
-1,12,8,3.7269,23.876,8
12,2,-11,3.725,23.8883,8
9,12,-2,3.724,23.8948,8
-9,5,12,3.7237,23.8968,8
-11,11,-1,3.7229,23.902,8
10,9,-8,3.7221,23.9072,8
-5,-9,11,3.7189,23.9281,8
12,-10,3,3.7177,23.9359,8
11,0,12,3.7176,23.9366,4
4,-11,-9,3.7169,23.9412,8
11,-9,-7,3.7154,23.951,8
-7,-10,-9,3.7153,23.9516,8
2,12,8,3.709,23.9929,8
5,-10,10,3.7083,23.9975,8
-5,12,7,3.7024,24.0363,8
-9,9,-9,3.7012,24.0442,4
11,11,-2,3.6994,24.0561,1
12,5,10,3.6959,24.0792,8
5,8,12,3.6954,24.0825,8
10,-4,12,3.6943,24.0898,8
0,10,11,3.6917,24.107,4
10,-6,11,3.6902,24.117,8
0,9,12,3.6866,24.1409,4
-1,-10,11,3.6858,24.1462,8
9,-11,-6,3.6853,24.1495,8
9,12,3,3.6849,24.1522,8
8,-11,-7,3.684,24.1582,8
9,-7,-11,3.6829,24.1655,8
12,-9,6,3.6815,24.1748,8
-11,-2,12,3.6809,24.1788,8
1,-9,12,3.6808,24.1795,8
-3,12,8,3.6798,24.1862,8
12,-3,11,3.6791,24.1908,8
2,-10,11,3.6685,24.2618,8
-11,5,11,3.668,24.2652,8
10,-10,7,3.6652,24.284,8
5,11,-9,3.6644,24.2894,8
2,-9,12,3.6636,24.2947,8
0,11,-10,3.6634,24.2961,4
-7,12,6,3.6631,24.2981,8
11,-11,3,3.661,24.3123,8
8,12,-5,3.6607,24.3143,8
9,-10,8,3.6602,24.3177,8
10,-11,-5,3.6599,24.3197,8
-1,11,-10,3.6577,24.3345,8
7,11,8,3.656,24.346,8
6,9,-11,3.6549,24.3535,8
-8,-9,10,3.654,24.3595,8
-8,-8,-11,3.6465,24.4104,1
-6,-10,-10,3.6449,24.4213,4
-10,12,0,3.6445,24.424,4
11,10,6,3.6438,24.4288,8
2,11,-10,3.6408,24.4492,8
3,10,-11,3.6402,24.4533,8
-4,12,8,3.64,24.4547,8
6,12,-7,3.6393,24.4595,8
10,12,-1,3.6371,24.4745,8
11,3,12,3.6367,24.4772,8
3,-9,12,3.6354,24.4861,8
-6,8,12,3.6326,24.5053,8
-9,12,-4,3.6322,24.508,8
-8,-10,-9,3.6291,24.5293,8
12,-7,-9,3.6263,24.5485,8
-9,-6,12,3.6251,24.5568,8
11,8,-9,3.6242,24.563,8
12,-8,8,3.6216,24.5809,8
12,-4,11,3.6177,24.6078,8
-10,12,2,3.6151,24.6258,8
-10,-5,12,3.6149,24.6271,8
-11,7,10,3.6143,24.6313,8
3,11,-10,3.6131,24.6396,8
11,-11,-4,3.6093,24.666,8
-8,-7,12,3.6072,24.6805,8
0,12,9,3.604,24.7028,4
6,11,-9,3.6032,24.7084,8
11,9,8,3.6025,24.7132,8
4,10,11,3.6017,24.7188,8
10,-8,10,3.6014,24.7209,4
12,-11,0,3.5996,24.7335,4
12,-6,-10,3.5994,24.7349,8
1,12,9,3.5985,24.7411,8
12,-10,5,3.5974,24.7488,8
4,-9,12,3.597,24.7516,8
-10,-9,9,3.5942,24.7712,8
12,11,-1,3.5924,24.7838,8
-5,12,-8,3.5906,24.7964,8
-9,-11,7,3.5892,24.8063,8
12,0,12,3.5876,24.8175,4
12,9,-7,3.5857,24.8309,8
7,9,11,3.5835,24.8464,8
2,12,-9,3.5824,24.8541,8
-8,12,6,3.5805,24.8675,8
-10,-11,6,3.5797,24.8732,8
10,12,3,3.5793,24.876,8
10,7,-11,3.5775,24.8887,8
11,-4,12,3.5773,24.8901,8
-4,11,10,3.5754,24.9036,8
-7,10,-10,3.574,24.9135,8
8,11,-8,3.5738,24.9149,8
11,-6,-11,3.5736,24.9163,8
12,-11,2,3.5712,24.9333,8
-7,12,7,3.5687,24.9511,8
-9,12,-5,3.5676,24.9589,8
7,-8,12,3.5624,24.9959,8
9,-9,10,3.5614,25.003,8
10,10,-8,3.5566,25.0373,1
-3,12,9,3.5561,25.0409,8
12,2,12,3.5547,25.0509,4
-9,8,11,3.5544,25.0531,8
-5,-10,-11,3.5538,25.0574,8
11,-10,-7,3.5508,25.0789,8
5,-9,12,3.5494,25.0889,8
-11,-11,-5,3.546,25.1134,1
12,-5,11,3.543,25.135,8
9,-10,9,3.5384,25.1682,4
12,-11,-3,3.5367,25.1805,8
7,11,-9,3.5346,25.1957,8
-6,12,8,3.533,25.2073,8
11,12,0,3.532,25.2146,4
10,12,-4,3.531,25.2218,8
-5,-11,10,3.5286,25.2393,8
0,10,12,3.5257,25.2604,4
-11,12,-1,3.5252,25.264,8
-10,6,12,3.5244,25.2698,8
12,10,-6,3.5212,25.2932,8
1,10,12,3.5206,25.2976,8
-4,12,9,3.5201,25.3012,8
-9,-7,12,3.518,25.3166,8
12,3,12,3.5147,25.3407,4
0,-11,-11,3.5143,25.3437,4
1,11,11,3.5092,25.3811,4
8,-9,-11,3.506,25.4047,8
2,-10,12,3.5055,25.4083,8
11,12,2,3.5052,25.4106,8
-11,-5,12,3.505,25.412,8
12,-8,-9,3.5035,25.4231,8
-6,10,-11,3.4979,25.4645,8
8,10,-10,3.4971,25.4704,8
12,-7,10,3.4946,25.4889,8
-2,-11,11,3.4943,25.4912,8
-6,9,12,3.4936,25.4963,8
9,12,-6,3.4932,25.4993,8
-11,8,-10,3.4927,25.503,8
-8,12,-7,3.4921,25.5075,8
-10,-11,-7,3.4914,25.5127,8
12,-11,4,3.4901,25.5223,8
-9,11,8,3.4871,25.5447,8
8,-8,12,3.4862,25.5514,8
12,-9,8,3.4839,25.5685,8
-3,-10,12,3.4808,25.5917,8
-5,12,9,3.4754,25.6321,8
0,12,10,3.4745,25.6389,4
-6,-11,10,3.4738,25.6441,8
11,-11,6,3.4729,25.6509,8
11,12,-3,3.4726,25.6532,8
-10,12,-5,3.4716,25.6607,8
11,-7,11,3.4709,25.6659,4
3,11,-11,3.4698,25.6742,8
-1,12,-10,3.4697,25.675,8
-7,12,8,3.4683,25.6855,8
10,-9,-10,3.4658,25.7043,8
12,4,12,3.461,25.7406,4
8,11,9,3.4602,25.7467,8
10,8,11,3.4594,25.7527,8
12,6,11,3.4577,25.7656,8
-2,12,-10,3.4552,25.7846,8
11,-10,-8,3.4518,25.8104,8
4,-10,12,3.447,25.847,8
10,-10,9,3.4446,25.8653,8
12,-10,-7,3.437,25.9235,8
-4,-11,-11,3.4364,25.9281,4
-7,-10,-11,3.4351,25.9381,8
12,11,5,3.4327,25.9565,8
3,12,10,3.4316,25.965,8
-7,-9,12,3.431,25.9696,8
11,12,4,3.4283,25.9904,8
-10,7,12,3.4258,26.0097,8
9,-9,11,3.4239,26.0244,8
-6,12,-9,3.423,26.0314,8
11,6,12,3.4224,26.036,8
12,12,0,3.42,26.0546,1
9,10,-10,3.4156,26.0887,8
12,12,-1,3.4138,26.1027,1
7,11,-10,3.4123,26.1144,8
-9,12,-7,3.411,26.1245,8
-9,8,12,3.4055,26.1675,8
-5,10,12,3.405,26.1714,8
10,12,6,3.4029,26.1878,8
-4,12,10,3.3992,26.2169,8
8,12,8,3.3979,26.2271,4
-10,-11,8,3.3972,26.2326,8
12,12,-2,3.3956,26.2451,1
12,5,12,3.3955,26.2459,4
5,-11,-11,3.3947,26.2522,4
-11,-11,7,3.3921,26.2727,1
12,8,-10,3.3842,26.3351,8
9,-11,9,3.3812,26.3589,4
12,-9,9,3.3783,26.382,8
11,12,5,3.3739,26.417,8
0,-11,12,3.3701,26.4473,4
11,-9,10,3.3686,26.4593,8
-8,10,-11,3.3667,26.4745,8
12,-11,6,3.3662,26.4785,8
12,12,-3,3.3659,26.4809,1
1,-11,12,3.3657,26.4825,8
12,7,-11,3.3644,26.4929,8
-7,12,-9,3.3641,26.4953,8
8,-9,12,3.3628,26.5058,8
-11,-8,11,3.3627,26.5066,8
-5,12,10,3.3589,26.5371,8
6,-10,12,3.3557,26.5629,8
2,11,12,3.3525,26.5887,8
-11,-10,-9,3.3491,26.6162,8
12,-10,-8,3.3471,26.6324,8
0,12,-11,3.3465,26.6372,4
6,-11,11,3.3459,26.6421,8
-8,11,10,3.3451,26.6486,8
1,12,-11,3.3422,26.6722,8
-10,-9,-11,3.3387,26.7006,8
11,-7,12,3.3318,26.757,8
10,-10,10,3.331,26.7635,4
3,11,12,3.3309,26.7643,8
-2,12,-11,3.3293,26.7774,8
-10,12,7,3.3268,26.7979,8
12,12,4,3.3256,26.8078,1
-9,12,-8,3.323,26.8291,8
10,-8,12,3.3217,26.8398,8
12,6,12,3.3202,26.8522,4
6,12,10,3.3116,26.9232,8
-11,12,6,3.3108,26.9299,8
3,12,-11,3.3081,26.9522,8
-11,11,-8,3.3055,26.9738,8
4,11,12,3.3013,27.0088,8
7,-10,12,3.3001,27.0188,8
-8,12,9,3.2997,27.0222,8
-10,-11,9,3.2991,27.0272,8
9,-10,-11,3.2938,27.0715,8
12,11,-7,3.2925,27.0824,8
-7,-11,11,3.2908,27.0966,8
9,9,12,3.2902,27.1017,1
4,12,-11,3.2791,27.1952,8
12,12,-5,3.2759,27.2222,1
9,11,-10,3.2737,27.2409,8
12,-9,10,3.271,27.2638,8
12,-8,11,3.2656,27.3098,8
5,11,12,3.2643,27.3208,8
7,12,-10,3.2581,27.3739,8
12,10,9,3.2532,27.4159,8
11,-9,11,3.2516,27.4296,4
-10,12,8,3.245,27.4865,8
11,-10,-10,3.2445,27.4908,4
5,12,-11,3.2429,27.5047,8
11,12,7,3.2405,27.5254,8
-8,10,12,3.2393,27.5358,8
12,7,12,3.2373,27.5532,4
-11,-8,12,3.2358,27.5662,8
9,12,9,3.2311,27.6071,4
-8,-11,-11,3.2305,27.6123,4
0,12,12,3.2214,27.6919,4
6,-11,12,3.2208,27.6971,8
12,12,-6,3.218,27.7217,1
10,10,11,3.2178,27.7235,1
1,12,12,3.2175,27.7261,4
-11,-11,9,3.215,27.7481,1
-10,9,12,3.2144,27.7534,8
12,11,-8,3.2131,27.7649,8
-2,12,12,3.206,27.8276,4
-6,12,-11,3.2002,27.879,8
-8,12,-10,3.1995,27.8853,8
10,11,-10,3.199,27.8897,8
-3,12,12,3.187,27.9968,4
9,10,12,3.1743,28.1112,8
-7,-11,12,3.1716,28.1356,8
-9,11,11,3.166,28.1864,4
11,12,8,3.1648,28.1973,8
12,9,11,3.1636,28.2082,8
-4,12,12,3.1611,28.231,4
-10,12,9,3.1592,28.2483,8
12,10,-10,3.157,28.2684,8
12,12,-7,3.1534,28.3013,1
7,12,11,3.1519,28.3151,8
12,8,12,3.149,28.3417,4
-11,-10,-11,3.1395,28.4293,4
-9,12,-10,3.1368,28.4543,8
-11,9,12,3.1364,28.458,8
12,-11,9,3.1298,28.5192,8
5,12,12,3.1286,28.5304,4
-11,11,-10,3.1221,28.5911,8
-8,11,12,3.1175,28.6342,8
-10,10,12,3.106,28.7425,8
-8,12,11,3.0988,28.8107,8
-10,11,-11,3.0982,28.8164,8
6,12,12,3.0902,28.8926,4
-11,12,-9,3.0851,28.9414,8
12,12,8,3.0835,28.9568,1
10,12,-10,3.0709,29.0782,8
12,10,-11,3.0601,29.1831,8
9,11,12,3.0594,29.1899,8
12,9,12,3.0572,29.2114,4
7,12,12,3.0467,29.3143,4
12,11,10,3.0439,29.3419,8
-9,12,-11,3.0417,29.3636,8
11,10,12,3.0355,29.4249,8
-11,-11,-11,3.0282,29.4974,1
12,12,-9,3.0096,29.6839,1
11,12,10,3.0027,29.7537,8
-8,12,12,2.9986,29.7953,4
10,11,12,2.9981,29.8004,8
-10,12,11,2.9815,29.9702,8
12,-10,12,2.9635,30.1565,4
12,11,11,2.9567,30.2276,4
-9,12,12,2.9468,30.3315,4
-11,-11,12,2.9346,30.4607,1
12,12,10,2.933,30.4777,1
11,12,-11,2.9189,30.6285,8
-10,12,12,2.892,30.9205,4
12,-11,12,2.8694,31.1702,4
12,12,-11,2.8547,31.3348,1
11,12,12,2.8348,31.5605,4
12,12,12,2.7759,32.2482,1